[
  {
    "trial_index": 0,
    "time_elapsed": 4179,
    "internal_node_id": "0.0-0.0",
    "response": 3,
    "item_id": "irq-verbal-8",
    "item": "I like to give myself some down time to talk through thoughts in my mind.",
    "category": "verbal",
    "questionnaire": "irq"
  },
  {
    "trial_index": 0,
    "time_elapsed": 4179,
    "internal_node_id": "0.0-0.0",
    "response": 3,
    "item_id": "irq-verbal-12",
    "item": "My memories often involve conversations I’ve had.",
    "category": "verbal",
    "questionnaire": "irq"
  },
  {
    "trial_index": 0,
    "time_elapsed": 4179,
    "internal_node_id": "0.0-0.0",
    "response": 3,
    "item_id": "irq-manipulation-2",
    "item": "I can easily choose to imagine this sentence in my mind pronounced unnaturally slowly.",
    "category": "manipulation",
    "questionnaire": "irq"
  },
  {
    "trial_index": 0,
    "time_elapsed": 4179,
    "internal_node_id": "0.0-0.0",
    "response": 3,
    "item_id": "irq-ortho-1",
    "item": "I find it easy to decide if words rhyme by seeing their spelling in my mind's eye.",
    "category": "orthographic",
    "questionnaire": "irq"
  },
  {
    "trial_index": 1,
    "time_elapsed": 7728,
    "internal_node_id": "0.0-1.0",
    "response": 3,
    "item_id": "irq-ortho-3",
    "item": "I see words in my \"mind’s eye\" when I think.",
    "category": "orthographic",
    "questionnaire": "irq"
  },
  {
    "trial_index": 1,
    "time_elapsed": 7728,
    "internal_node_id": "0.0-1.0",
    "response": 3,
    "item_id": "irq-visual-10",
    "item": "If I imagine my memories visually they are more often static than moving.",
    "category": "visual",
    "questionnaire": "irq"
  },
  {
    "trial_index": 1,
    "time_elapsed": 7728,
    "internal_node_id": "0.0-1.0",
    "response": 3,
    "item_id": "irq-visual-9",
    "item": "If I talk to myself in my head it is usually accompanied by visual imagery.",
    "category": "visual",
    "questionnaire": "irq"
  },
  {
    "trial_index": 1,
    "time_elapsed": 7728,
    "internal_node_id": "0.0-1.0",
    "response": 3,
    "item_id": "irq-verbal-5",
    "item": "My inner speech helps my imagination.",
    "category": "verbal",
    "questionnaire": "irq"
  },
  {
    "trial_index": 2,
    "time_elapsed": 12661,
    "internal_node_id": "0.0-2.0",
    "response": 3,
    "item_id": "irq-visual-3",
    "item": "My mental images are very vivid and photographic.",
    "category": "visual",
    "questionnaire": "irq"
  },
  {
    "trial_index": 2,
    "time_elapsed": 12661,
    "internal_node_id": "0.0-2.0",
    "response": 3,
    "item_id": "irq-visual-8",
    "item": "When traveling to get to somewhere I tend to think more visually than verbally.",
    "category": "visual",
    "questionnaire": "irq"
  },
  {
    "trial_index": 2,
    "time_elapsed": 12661,
    "internal_node_id": "0.0-2.0",
    "response": 3,
    "item_id": "irq-ortho-2",
    "item": "When I hear someone talking, I see words written down in my mind.",
    "category": "orthographic",
    "questionnaire": "irq"
  },
  {
    "trial_index": 2,
    "time_elapsed": 12661,
    "internal_node_id": "0.0-2.0",
    "response": 3,
    "item_id": "irq-visual-2",
    "item": "I can close my eyes and easily picture a scene that I have experienced.",
    "category": "visual",
    "questionnaire": "irq"
  },
  {
    "trial_index": 3,
    "time_elapsed": 17195,
    "internal_node_id": "0.0-3.0",
    "response": 3,
    "item_id": "irq-ortho-4",
    "item": "When I am introduced to someone for the first time, I imagine what their name would look like when written down.",
    "category": "orthographic",
    "questionnaire": "irq"
  },
  {
    "trial_index": 3,
    "time_elapsed": 17195,
    "internal_node_id": "0.0-3.0",
    "response": 3,
    "item_id": "irq-manipulation-4",
    "item": "It is easy for me to imagine the sensation of licking a brick.",
    "category": "manipulation",
    "questionnaire": "irq"
  },
  {
    "trial_index": 3,
    "time_elapsed": 17195,
    "internal_node_id": "0.0-3.0",
    "response": 3,
    "item_id": "irq-manipulation-1",
    "item": "I can easily imagine and mentally rotate three-dimensional geometric figures.",
    "category": "manipulation",
    "questionnaire": "irq"
  },
  {
    "trial_index": 3,
    "time_elapsed": 17195,
    "internal_node_id": "0.0-3.0",
    "response": 3,
    "item_id": "irq-verbal-9",
    "item": "I hear words in my \"mind’s ear\" when I think.",
    "category": "verbal",
    "questionnaire": "irq"
  },
  {
    "trial_index": 4,
    "time_elapsed": 21695,
    "internal_node_id": "0.0-4.0",
    "response": 3,
    "item_id": "irq-manipulation-7",
    "item": "I think I have a large vocabulary in my native language compared to others.",
    "category": "manipulation",
    "questionnaire": "irq"
  },
  {
    "trial_index": 4,
    "time_elapsed": 21695,
    "internal_node_id": "0.0-4.0",
    "response": 3,
    "item_id": "irq-manipulation-8",
    "item": "I can easily imagine the sound of a trumpet getting louder.",
    "category": "manipulation",
    "questionnaire": "irq"
  },
  {
    "trial_index": 4,
    "time_elapsed": 21695,
    "internal_node_id": "0.0-4.0",
    "response": 3,
    "item_id": "irq-visual-6",
    "item": "I often use mental images or pictures to help me remember things.",
    "category": "visual",
    "questionnaire": "irq"
  },
  {
    "trial_index": 4,
    "time_elapsed": 21695,
    "internal_node_id": "0.0-4.0",
    "response": 3,
    "item_id": "irq-visual-7",
    "item": "My memories are mainly visual in nature.",
    "category": "visual",
    "questionnaire": "irq"
  },
  {
    "trial_index": 5,
    "time_elapsed": 25610,
    "internal_node_id": "0.0-5.0",
    "response": 3,
    "item_id": "irq-manipulation-3",
    "item": "In school, I had no problems with geometry.",
    "category": "manipulation",
    "questionnaire": "irq"
  },
  {
    "trial_index": 5,
    "time_elapsed": 25610,
    "internal_node_id": "0.0-5.0",
    "response": 3,
    "item_id": "irq-verbal-11",
    "item": "I often talk to myself internally while watching TV.",
    "category": "verbal",
    "questionnaire": "irq"
  },
  {
    "trial_index": 5,
    "time_elapsed": 25610,
    "internal_node_id": "0.0-5.0",
    "response": 3,
    "item_id": "irq-verbal-1",
    "item": "When I think about someone I know well, I instantly hear their voice in my mind.",
    "category": "verbal",
    "questionnaire": "irq"
  },
  {
    "trial_index": 5,
    "time_elapsed": 25610,
    "internal_node_id": "0.0-5.0",
    "response": 3,
    "item_id": "irq-verbal-4",
    "item": "If I am walking somewhere by myself, I frequently think of conversations that I’ve recently had.",
    "category": "verbal",
    "questionnaire": "irq"
  },
  {
    "trial_index": 6,
    "time_elapsed": 29393,
    "internal_node_id": "0.0-6.0",
    "response": 3,
    "item_id": "irq-ortho-6",
    "item": "I hear a running summary of everything I am doing in my head.",
    "category": "orthographic",
    "questionnaire": "irq"
  },
  {
    "trial_index": 6,
    "time_elapsed": 29393,
    "internal_node_id": "0.0-6.0",
    "response": 3,
    "item_id": "irq-verbal-2",
    "item": "I think about problems in my mind in the form of a conversation with myself.",
    "category": "verbal",
    "questionnaire": "irq"
  },
  {
    "trial_index": 6,
    "time_elapsed": 29393,
    "internal_node_id": "0.0-6.0",
    "response": 3,
    "item_id": "irq-verbal-10",
    "item": "I rarely vocalize thoughts in my mind.",
    "category": "verbal",
    "questionnaire": "irq"
  },
  {
    "trial_index": 6,
    "time_elapsed": 29393,
    "internal_node_id": "0.0-6.0",
    "response": 3,
    "item_id": "irq-verbal-7",
    "item": "When thinking about a social problem, I often talk it through in my head.",
    "category": "verbal",
    "questionnaire": "irq"
  },
  {
    "trial_index": 7,
    "time_elapsed": 33012,
    "internal_node_id": "0.0-7.0",
    "response": 3,
    "item_id": "irq-manipulation-5",
    "item": "I find it difficult to imagine how a three-dimensional geometric figure would exactly look like when rotated.",
    "category": "manipulation",
    "questionnaire": "irq"
  },
  {
    "trial_index": 7,
    "time_elapsed": 33012,
    "internal_node_id": "0.0-7.0",
    "response": 3,
    "item_id": "irq-visual-4",
    "item": "The old saying “A picture is worth a thousand words” is certainly true for me.",
    "category": "visual",
    "questionnaire": "irq"
  },
  {
    "trial_index": 7,
    "time_elapsed": 33012,
    "internal_node_id": "0.0-7.0",
    "response": 3,
    "item_id": "irq-visual-5",
    "item": "When I think about someone I know well, I instantly see their face in my mind.",
    "category": "visual",
    "questionnaire": "irq"
  },
  {
    "trial_index": 7,
    "time_elapsed": 33012,
    "internal_node_id": "0.0-7.0",
    "response": 3,
    "item_id": "irq-verbal-6",
    "item": "I tend to think things through verbally when I am relaxing.",
    "category": "verbal",
    "questionnaire": "irq"
  },
  {
    "trial_index": 8,
    "time_elapsed": 36495,
    "internal_node_id": "0.0-8.0",
    "response": 3,
    "item_id": "irq-verbal-3",
    "item": "If I am walking somewhere by myself, I often have a silent conversation with myself.",
    "category": "verbal",
    "questionnaire": "irq"
  },
  {
    "trial_index": 8,
    "time_elapsed": 36495,
    "internal_node_id": "0.0-8.0",
    "response": 3,
    "item_id": "irq-ortho-5",
    "item": "A strategy I use to help me remember written material is imagining what the writing looks like.",
    "category": "orthographic",
    "questionnaire": "irq"
  },
  {
    "trial_index": 8,
    "time_elapsed": 36495,
    "internal_node_id": "0.0-8.0",
    "response": 3,
    "item_id": "irq-visual-1",
    "item": "I often enjoy the use of mental pictures to reminisce.",
    "category": "visual",
    "questionnaire": "irq"
  },
  {
    "trial_index": 8,
    "time_elapsed": 36495,
    "internal_node_id": "0.0-8.0",
    "response": 3,
    "item_id": "irq-manipulation-6",
    "item": "I can easily imagine someone clearly talking, and then imagine the same voice with a heavy cold.",
    "category": "manipulation",
    "questionnaire": "irq"
  },
  {
    "trial_index": 10,
    "time_elapsed": 42078,
    "internal_node_id": "0.0-10.0",
    "response": "No image at all, I only ",
    "item_id": "vviq-1",
    "item": "The exact contour of face, head, shoulders, and body",
    "category": "visual",
    "questionnaire": "vviq"
  },
  {
    "trial_index": 10,
    "time_elapsed": 42078,
    "internal_node_id": "0.0-10.0",
    "response": "No image at all, I only ",
    "item_id": "vviq-2",
    "item": "Characteristic poses of head, attitudes of body, etc.",
    "category": "visual",
    "questionnaire": "vviq"
  },
  {
    "trial_index": 10,
    "time_elapsed": 42078,
    "internal_node_id": "0.0-10.0",
    "response": "No image at all, I only ",
    "item_id": "vviq-3",
    "item": "The precise carriage, length of step, etc. in walking",
    "category": "visual",
    "questionnaire": "vviq"
  },
  {
    "trial_index": 10,
    "time_elapsed": 42078,
    "internal_node_id": "0.0-10.0",
    "response": "No image at all, I only ",
    "item_id": "vviq-4",
    "item": "The different colors worn in some familiar clothes",
    "category": "visual",
    "questionnaire": "vviq"
  },
  {
    "trial_index": 11,
    "time_elapsed": 47146,
    "internal_node_id": "0.0-11.0",
    "response": "Dim and vague image",
    "item_id": "vviq-5",
    "item": "The sun is rising above the horizon into a hazy sky.",
    "category": "visual",
    "questionnaire": "vviq"
  },
  {
    "trial_index": 11,
    "time_elapsed": 47146,
    "internal_node_id": "0.0-11.0",
    "response": "Dim and vague image",
    "item_id": "vviq-6",
    "item": "The sky clears and surrounds the sun with blueness.",
    "category": "visual",
    "questionnaire": "vviq"
  },
  {
    "trial_index": 11,
    "time_elapsed": 47146,
    "internal_node_id": "0.0-11.0",
    "response": "Dim and vague image",
    "item_id": "vviq-7",
    "item": "Clouds. A storm blows up, with flashes of lightening.",
    "category": "visual",
    "questionnaire": "vviq"
  },
  {
    "trial_index": 11,
    "time_elapsed": 47146,
    "internal_node_id": "0.0-11.0",
    "response": "Dim and vague image",
    "item_id": "vviq-8",
    "item": "A rainbow appears.",
    "category": "visual",
    "questionnaire": "vviq"
  },
  {
    "trial_index": 12,
    "time_elapsed": 53479,
    "internal_node_id": "0.0-12.0",
    "response": "Moderately realistic and vivid",
    "item_id": "vviq-9",
    "item": "The overall appearance of the shop from the opposite side of the road",
    "category": "visual",
    "questionnaire": "vviq"
  },
  {
    "trial_index": 12,
    "time_elapsed": 53479,
    "internal_node_id": "0.0-12.0",
    "response": "Moderately realistic and vivid",
    "item_id": "vviq-10",
    "item": "A window display including colors, shape, and details of individual items for sale",
    "category": "visual",
    "questionnaire": "vviq"
  },
  {
    "trial_index": 12,
    "time_elapsed": 53479,
    "internal_node_id": "0.0-12.0",
    "response": "Moderately realistic and vivid",
    "item_id": "vviq-11",
    "item": "You are near the entrance. The color, shape, and details of the door",
    "category": "visual",
    "questionnaire": "vviq"
  },
  {
    "trial_index": 12,
    "time_elapsed": 53479,
    "internal_node_id": "0.0-12.0",
    "response": "Moderately realistic and vivid",
    "item_id": "vviq-12",
    "item": "You enter the shop and go to the counter. The counter assistant serves you. Money changes hands.",
    "category": "visual",
    "questionnaire": "vviq"
  },
  {
    "trial_index": 13,
    "time_elapsed": 59479,
    "internal_node_id": "0.0-13.0",
    "response": "Realistic and reasonably vivid",
    "item_id": "vviq-13",
    "item": "The contours of the landscape",
    "category": "visual",
    "questionnaire": "vviq"
  },
  {
    "trial_index": 13,
    "time_elapsed": 59479,
    "internal_node_id": "0.0-13.0",
    "response": "Realistic and reasonably vivid",
    "item_id": "vviq-14",
    "item": "The color and shape of the trees",
    "category": "visual",
    "questionnaire": "vviq"
  },
  {
    "trial_index": 13,
    "time_elapsed": 59479,
    "internal_node_id": "0.0-13.0",
    "response": "Realistic and reasonably vivid",
    "item_id": "vviq-15",
    "item": "The color and shape of the lake",
    "category": "visual",
    "questionnaire": "vviq"
  },
  {
    "trial_index": 13,
    "time_elapsed": 59479,
    "internal_node_id": "0.0-13.0",
    "response": "Realistic and reasonably vivid",
    "item_id": "vviq-16",
    "item": "A strong wind blows on the tree and on the lake causing waves.",
    "category": "visual",
    "questionnaire": "vviq"
  },
  {
    "trial_index": 15,
    "time_elapsed": 67196,
    "internal_node_id": "0.0-15.0-0.0",
    "response": "No",
    "item_id": "N/A",
    "item": "N/A",
    "category": "N/A",
    "questionnaire": "N/A"
  },
  {
    "trial_index": 15,
    "time_elapsed": 67196,
    "internal_node_id": "0.0-15.0-0.0",
    "response": "Woman",
    "item_id": "N/A",
    "item": "N/A",
    "category": "N/A",
    "questionnaire": "N/A"
  },
  {
    "trial_index": 15,
    "time_elapsed": 67196,
    "internal_node_id": "0.0-15.0-0.0",
    "response": "Right",
    "item_id": "N/A",
    "item": "N/A",
    "category": "N/A",
    "questionnaire": "N/A"
  },
  {
    "trial_index": 15,
    "time_elapsed": 67196,
    "internal_node_id": "0.0-15.0-0.0",
    "response": "Yes",
    "item_id": "N/A",
    "item": "N/A",
    "category": "N/A",
    "questionnaire": "N/A"
  },
  {
    "trial_index": 15,
    "time_elapsed": 67196,
    "internal_node_id": "0.0-15.0-0.0",
    "response": "Yes",
    "item_id": "N/A",
    "item": "N/A",
    "category": "N/A",
    "questionnaire": "N/A"
  },
  {
    "trial_index": 15,
    "time_elapsed": 67196,
    "internal_node_id": "0.0-15.0-0.0",
    "response": "High School",
    "item_id": "N/A",
    "item": "N/A",
    "category": "N/A",
    "questionnaire": "N/A"
  },
  {
    "trial_index": 16,
    "time_elapsed": 71079,
    "internal_node_id": "0.0-15.0-1.0",
    "response": [
      "No"
    ],
    "item_id": "N/A",
    "item": "N/A",
    "category": "N/A",
    "questionnaire": "N/A"
  },
  {
    "trial_index": 17,
    "time_elapsed": 75597,
    "internal_node_id": "0.0-15.0-2.0",
    "response": "32",
    "item_id": "N/A",
    "item": "N/A",
    "category": "N/A",
    "questionnaire": "N/A"
  },
  {
    "trial_index": 17,
    "time_elapsed": 75597,
    "internal_node_id": "0.0-15.0-2.0",
    "response": "test",
    "item_id": "N/A",
    "item": "N/A",
    "category": "N/A",
    "questionnaire": "N/A"
  },
  {
    "trial_index": 17,
    "time_elapsed": 75597,
    "internal_node_id": "0.0-15.0-2.0",
    "response": "test",
    "item_id": "N/A",
    "item": "N/A",
    "category": "N/A",
    "questionnaire": "N/A"
  }
]